File: src/static/files/Xrd/xrd.txt
5.0001 0
5.04111 0.104016
5.08212 0.312399
5.12314 -0.0936001
5.16415 0.125687
5.20516 0.157676
5.24617 0.0127816
5.28719 0.201422
5.3282 0.161096
5.36921 -0.0561117
5.41022 0.174798
5.45124 0.145492
5.49225 0.0851366
5.53326 -0.0687677
5.57427 0.027529
5.61528 0.0511099
5.6563 0.0644751
5.69731 0.00512449
5.73832 0.0188915
5.77933 0.116193
5.82035 -0.098805
5.86136 0.0437988
5.90237 0.10327
5.94338 0.027526
5.98439 -0.0167674
6.02541 0.0953902
6.06642 0.124415
6.10743 0.205725
6.14844 0.00598501
6.18946 0.0251963
6.23047 -0.0283082
6.27148 -0.0191118
6.31249 0.125702
6.35351 0.10405
6.39452 0.072183
6.43553 -0.105317
6.47654 0.0923842
6.51755 0.227786
6.55857 0.0717224
6.59958 0.0616928
6.64059 0.103948
6.6816 0.12557
6.72262 -0.00885683
6.76363 0.159001
6.80464 -0.0896076
6.84565 0.0977896
6.88666 0.0978876
6.92768 0.139853
6.96869 0.0570198
7.0097 0.130637
7.05071 -0.055961
7.09173 -0.169442
7.13274 -0.157721
7.17375 0.0208664
7.21476 0.220489
7.25578 0.0661449
7.29679 0.109919
7.3378 -0.21069
7.37881 -0.124847
7.41982 -0.044708
7.46084 0.0147988
7.50185 0.147423
7.54286 -0.0530849
7.58387 -0.00339198
7.62489 0.00483517
7.6659 0.0653466
7.70691 -0.0614411
7.74792 -0.0526112
7.78893 0.227253
7.82995 0.267735
7.87096 -0.0144992
7.91197 -0.0881989
7.95298 0.0883023
7.994 0.192088
8.03501 0.0148241
8.07602 -0.0372386
8.11703 -0.0161837
8.15805 -0.0365945
8.19906 0.0437047
8.24007 0.0684639
8.28108 0.249674
8.32209 -0.0272482
8.36311 0.279364
8.40412 0.07576
8.44513 0.320274
8.48614 0.023322
8.52716 -0.023429
8.56817 0.0328888
8.60918 -0.0473079
8.65019 -0.0439703
8.6912 -0.0404318
8.73222 -0.00544239
8.77323 0.0818313
8.81424 -0.00777746
8.85525 0.298648
8.89627 0.0636078
8.93728 0.0266852
8.97829 -0.0100365
9.0193 0.068026
9.06032 -0.0307938
9.10133 -0.150246
9.14234 0.157586
9.18335 0.142702
9.22436 0.044686
9.26538 0.176037
9.30639 0.140923
9.3474 0.251843
9.38841 0.0192139
9.42943 0.026369
9.47044 0.033725
9.51145 -0.0108013
9.55246 0.0386232
9.59348 -0.0575846
9.63449 0.0339084
9.6755 -0.0202309
9.71651 0.175831
9.75752 0.0491765
9.79854 -0.181443
9.83955 -0.016029
9.88056 -0.0921125
9.92157 0.0173896
9.96259 0.293759
10.0036 -0.0442535
10.0446 0.170018
10.0856 0.0199071
10.1266 -0.0258362
10.1676 0.0119548
10.2087 0.0603633
10.2497 -0.0264439
10.2907 0.0119499
10.3317 -0.136955
10.3727 0.0476734
10.4137 0.0137532
10.4547 0.115451
10.4957 -0.147234
10.5368 0.309032
10.5778 0.0675818
10.6188 0.222166
10.6598 -0.0397151
10.7008 -0.0722288
10.7418 0.0792583
10.7828 0.258496
10.8238 0.052518
10.8649 0.200908
10.9059 0.00574814
10.9469 0.133706
10.9879 0.0743653
11.0289 0.0673086
11.0699 0.0187861
11.1109 -0.133702
11.1519 0.109844
11.193 0.114008
11.234 0.368372
11.275 0.0604378
11.316 0.138121
11.357 0.0180882
11.398 0.16909
11.439 0.164042
11.48 0.0862791
11.5211 0.0920502
11.5621 0.181355
11.6031 0.239612
11.6441 0.256402
11.6851 0.012977
11.7261 0.00933596
11.7671 -0.129521
11.8081 0.0234901
11.8492 0.405869
11.8902 -0.0136355
11.9312 0.160811
11.9722 0.137543
12.0132 0.260308
12.0542 0.0707746
12.0952 0.193942
12.1362 0.19231
12.1772 0.107546
12.2183 0.0854827
12.2593 0.0532037
12.3003 -0.114291
12.3413 -0.0107515
12.3823 -0.0215944
12.4233 0.082347
12.4643 0.113573
12.5053 0.0929158
12.5464 0.07246
12.5874 -0.135295
12.6284 0.126032
12.6694 0.0333941
12.7104 0.357623
12.7514 0.234137
12.7924 0.152518
12.8334 0.362767
12.8745 0.479466
12.9155 0.127617
12.9565 0.150968
12.9975 0.330771
13.0385 0.448274
13.0795 0.295145
13.1205 0.110967
13.1615 0.114489
13.2026 -0.12137
13.2436 -0.0236957
13.2846 -0.0508202
13.3256 -0.129827
13.3666 -0.104466
13.4076 0.244012
13.4486 -0.0114755
13.4896 -0.0603818
13.5307 0.0139597
13.5717 0.0155856
13.6127 0.267412
13.6537 0.08194
13.6947 0.240419
13.7357 0.190765
13.7767 0.380895
13.8177 0.331643
13.8588 0.324259
13.8998 0.306659
13.9408 0.435093
13.9818 0.501228
14.0228 0.348814
14.0638 0.644517
14.1048 0.513339
14.1458 0.726111
14.1868 0.4495
14.2279 0.568924
14.2689 0.626049
14.3099 0.579208
14.3509 1.14715
14.3919 1.2778
14.4329 1.88781
14.4739 1.8626
14.5149 2.5251
14.556 2.70863
14.597 3.38195
14.638 3.34713
14.679 3.63543
14.72 4.50727
14.761 4.18139
14.802 4.43904
14.843 4.76981
14.8841 4.66328
14.9251 5.92154
14.9661 6.20083
15.0071 8.16782
15.0481 9.7496
15.0891 14.0087
15.1301 17.2158
15.1711 21.9649
15.2122 22.2766
15.2532 19.4532
15.2942 14.7966
15.3352 10.1714
15.3762 6.96312
15.4172 4.89045
15.4582 3.87007
15.4992 3.23531
15.5403 2.20491
15.5813 1.9143
15.6223 1.86347
15.6633 1.41701
15.7043 1.42908
15.7453 1.01428
15.7863 0.797585
15.8273 0.685262
15.8684 0.375223
15.9094 0.304968
15.9504 0.297414
15.9914 0.456727
16.0324 0.574575
16.0734 0.171791
16.1144 0.227541
16.1554 0.0230746
16.1965 0.0792262
16.2375 0.312662
16.2785 0.275466
16.3195 0.155137
16.3605 0.191259
16.4015 -0.0536685
16.4425 0.159939
16.4835 0.0299967
16.5245 0.150256
16.5656 -0.114701
16.6066 0.13096
16.6476 -0.0398451
16.6886 0.0812176
16.7296 0.0878979
16.7706 -0.0406375
16.8116 -0.0856387
16.8526 -0.0262723
16.8937 -0.143788
16.9347 -0.0736034
16.9757 0.142616
17.0167 -0.120131
17.0577 0.148333
17.0987 -0.0830017
17.1397 -0.0328857
17.1807 0.0799312
17.2218 0.140866
17.2628 0.118668
17.3038 0.0758375
17.3448 -0.227209
17.3858 0.00119631
17.4268 -0.0826979
17.4678 0.0731921
17.5088 -0.0103002
17.5499 0.0174002
17.5909 0.19796
17.6319 -0.00669557
17.6729 -0.1799
17.7139 0.00126232
17.7549 -0.0465407
17.7959 -0.198309
17.8369 -0.0269606
17.878 0.0195892
17.919 0.0871732
17.96 -0.00129184
18.001 0.0875274
18.042 0.0202975
18.083 -0.140481
18.124 0.126024
18.165 0.0906468
18.2061 0.253387
18.2471 0.0413287
18.2881 -0.118446
18.3291 -0.163436
18.3701 -0.145725
18.4111 0.0448602
18.4521 -0.108104
18.4931 0.0724665
18.5342 0.0761544
18.5752 0.163377
18.6162 -0.0200337
18.6572 0.0259236
18.6982 -0.0737515
18.7392 0.024691
18.7802 0.133751
18.8212 0.0346787
18.8622 0.00872398
18.9033 0.20172
18.9443 0.134501
18.9853 -0.057518
19.0263 -0.0201691
19.0673 0.0173808
19.1083 0.0967983
19.1493 -0.084
19.1903 -0.056264
19.2314 0.0341729
19.2724 0.145644
19.3134 0.0593995
19.3544 -0.0162275
19.3954 -0.279154
19.4364 -0.000211994
19.4774 0.0601805
19.5184 -0.0250595
19.5595 0.0253787
19.6005 0.0448283
19.6415 0.0436455
19.6825 -0.0198364
19.7235 -0.031034
19.7645 0.0517193
19.8055 0.134674
19.8465 0.00949536
19.8876 0.290768
19.9286 0.0722418
19.9696 -0.0210836
20.0106 0.323292
20.0516 0.178285
20.0926 0.0230624
20.1336 0.0867907
20.1746 0.0569699
20.2157 -0.03515
20.2567 -0.116652
20.2977 0.0624631
20.3387 0.168863
20.3797 0.0358798
20.4207 0.0489312
20.4617 0.249684
20.5027 0.148554
20.5438 0.318458
20.5848 0.0614795
20.6258 0.00261886
20.6668 0.0897925
20.7078 0.281334
20.7488 0.348076
20.7898 0.696269
20.8308 0.315496
20.8719 0.372425
20.9129 0.65872
20.9539 0.8098
20.9949 0.367331
21.0359 0.81048
21.0769 0.84758
21.1179 1.28071
21.1589 1.2453
21.1999 1.283
21.241 1.26882
21.282 1.41109
21.323 1.68898
21.364 1.90457
21.405 2.00578
21.446 1.83635
21.487 2.02129
21.528 1.9981
21.5691 2.17303
21.6101 1.27524
21.6511 1.83599
21.6921 1.63652
21.7331 1.33308
21.7741 1.51943
21.8151 1.06015
21.8561 0.715646
21.8972 0.933848
21.9382 0.71475
21.9792 0.902103
22.0202 0.558407
22.0612 0.277412
22.1022 0.652868
22.1432 0.549359
22.1842 -0.0747836
22.2253 0.145025
22.2663 0.240035
22.3073 0.0227454
22.3483 0.10774
22.3893 0.067936
22.4303 0.278333
22.4713 -0.031903
22.5123 -0.0294378
22.5534 -0.00593833
22.5944 0.153179
22.6354 0.08333
22.6764 0.117849
22.7174 0.215069
22.7584 -0.0312605
22.7994 0.180945
22.8404 0.101684
22.8815 0.158041
22.9225 0.141682
22.9635 -0.0619762
23.0045 -0.0779332
23.0455 0.177144
23.0865 -0.161328
23.1275 0.187862
23.1685 -0.0669144
23.2096 0.0639271
23.2506 0.111636
23.2916 -0.0904538
23.3326 -0.0631762
23.3736 0.099719
23.4146 -0.174685
23.4556 -0.0218046
23.4966 -0.0666399
23.5376 0.0137256
23.5787 0.0942921
23.6197 0.0813095
23.6607 0.141444
23.7017 0.212197
23.7427 0.126901
23.7837 -0.145695
23.8247 -0.0731678
23.8657 0.114144
23.9068 -0.0733437
23.9478 0.135203
23.9888 0.0731174
24.0298 -0.103351
24.0708 0.116216
24.1118 0.075566
24.1528 0.160117
24.1938 0.11987
24.2349 -0.0660104
24.2759 -0.0850229
24.3169 0.177416
24.3579 -0.00786183
24.3989 0.0362284
24.4399 0.247186
24.4809 0.0104284
24.5219 0.200955
24.563 0.110432
24.604 0.0513602
24.645 -0.00751063
24.686 0.0275694
24.727 0.0836837
24.768 0.046249
24.809 0.227765
24.85 0.0136489
24.8911 0.101817
24.9321 -0.0911283
24.9731 0.0910633
25.0141 0.0859559
25.0551 -0.0806284
25.0961 0.00797731
25.1371 -0.0594661
25.1781 0.164958
25.2192 0.129167
25.2602 0.218576
25.3012 0.0477695
25.3422 0.0750807
25.3832 -0.0224072
25.4242 0.0261392
25.4652 -0.0917801
25.5062 -0.0636652
25.5473 0.0167339
25.5883 0.191084
25.6293 0.053135
25.6703 0.0195536
25.7113 -0.0971602
25.7523 -0.203506
25.7933 0.169516
25.8343 -0.0614276
25.8753 0.0515796
25.9164 -0.0539623
25.9574 0.0281967
25.9984 0.0897233
26.0394 0.141034
26.0804 0.202963
26.1214 0.046342
26.1624 0.108672
26.2034 0.233703
26.2445 -0.0056477
26.2855 0.276035
26.3265 -0.0774973
26.3675 0.246254
26.4085 0.0181235
26.4495 0.133944
26.4905 -0.0417021
26.5315 0.10577
26.5726 0.253443
26.6136 0.182567
26.6546 -0.0235254
26.6956 -0.0627498
26.7366 0.0961435
26.7776 -0.00517906
26.8186 0.060366
26.8596 -0.134305
26.9007 0.0566423
26.9417 0.12279
26.9827 -0.0816944
27.0237 0.161939
27.0647 0.176606
27.1057 0.0873074
27.1467 0.0711266
27.1877 0.253063
27.2288 0.133118
27.2698 0.18004
27.3108 0.0917457
27.3518 0.211986
27.3928 0.155344
27.4338 0.150986
27.4748 0.136413
27.5158 0.0907904
27.5569 0.0453688
27.5979 -0.104019
27.6389 0.134167
27.6799 0.0704702
27.7209 0.0382243
27.7619 -0.077154
27.8029 0.182669
27.8439 0.255192
27.885 0.0570832
27.926 0.0258419
27.967 0.0468849
28.008 0.213962
28.049 -0.00417636
28.09 -0.0866973
28.131 0.101816
28.172 0.00928031
28.213 -0.176805
28.2541 0.0435616
28.2951 -0.100455
28.3361 0.117848
28.3771 0.128019
28.4181 0.0133904
28.4591 0.190629
28.5001 -0.131931
28.5411 -0.17304
28.5822 0.0985523
28.6232 0.0890951
28.6642 0.225672
28.7052 -0.0229666
28.7462 0.186929
28.7872 0.147025
28.8282 0.21149
28.8692 0.0157379
28.9103 0.30977
28.9513 0.260254
28.9923 0.408855
29.0333 0.370157
29.0743 0.196243
29.1153 0.324614
29.1563 0.703185
29.1973 0.373624
29.2384 0.533848
29.2794 0.642189
29.3204 0.948647
29.3614 1.06781
29.4024 1.22883
29.4434 0.858812
29.4844 1.16607
29.5254 1.2027
29.5665 1.58328
29.6075 1.39115
29.6485 2.11588
29.6895 2.18457
29.7305 2.38887
29.7715 2.77045
29.8125 3.7564
29.8535 4.58631
29.8946 5.70808
29.9356 6.21547
29.9766 8.32723
30.0176 9.31418
30.0586 11.4368
30.0996 14.1012
30.1406 14.1825
30.1816 16.9828
30.2226 18.7728
30.2637 19.4068
30.3047 21.3639
30.3457 23.6233
30.3867 24.0808
30.4277 25.4656
30.4687 27.8715
30.5097 30.2358
30.5507 32.6837
30.5918 34.9235
30.6328 34.4968
30.6738 34.6432
30.7148 32.394
30.7558 29.5825
30.7968 26.5525
30.8378 22.9705
30.8788 19.1805
30.9199 17.0989
30.9609 13.5488
31.0019 11.0406
31.0429 9.32425
31.0839 7.61852
31.1249 6.6109
31.1659 5.02015
31.2069 4.39835
31.248 3.61009
31.289 3.20744
31.33 2.82583
31.371 2.19442
31.412 1.80279
31.453 1.94261
31.494 1.25972
31.535 1.39994
31.5761 1.46745
31.6171 1.42058
31.6581 1.16558
31.6991 0.973271
31.7401 0.885334
31.7811 0.901764
31.8221 0.876729
31.8631 0.747728
31.9042 0.671012
31.9452 0.761163
31.9862 0.372348
32.0272 0.556651
32.0682 0.595321
32.1092 0.613359
32.1502 0.360765
32.1912 0.347954
32.2323 0.345762
32.2733 0.333353
32.3143 0.258646
32.3553 0.142473
32.3963 0.161917
32.4373 0.171146
32.4783 0.138909
32.5193 0.075623
32.5603 -0.0916289
32.6014 0.0538202
32.6424 0.157804
32.6834 -0.0296789
32.7244 0.0642896
32.7654 0.137626
32.8064 -0.0180039
32.8474 0.180734
32.8884 0.0567562
32.9295 -0.0982706
32.9705 -0.00655907
33.0115 0.116603
33.0525 0.0212168
33.0935 0.228114
33.1345 -0.0960369
33.1755 0.0715662
33.2165 0.0518703
33.2576 -0.0717914
33.2986 0.0234978
33.3396 -0.0685121
33.3806 0.0788466
33.4216 -0.0552596
33.4626 0.0712518
33.5036 -0.0207858
33.5446 0.0436274
33.5857 0.0874083
33.6267 0.0376401
33.6677 0.0922394
33.7087 0.20954
33.7497 0.295791
33.7907 0.23641
33.8317 0.114729
33.8727 0.201583
33.9138 0.371972
33.9548 0.344644
33.9958 0.223768
34.0368 0.498925
34.0778 0.503451
34.1188 0.362343
34.1598 0.398521
34.2008 0.486982
34.2419 0.273561
34.2829 0.289507
34.3239 0.263988
34.3649 0.436587
34.4059 0.442719
34.4469 0.42822
34.4879 0.122254
34.5289 0.462323
34.57 0.260926
34.611 0.163897
34.652 0.129568
34.693 0.168357
34.734 0.0615139
34.775 -0.0451284
34.816 0.0359301
34.857 -0.0390604
34.898 0.0424
34.9391 0.0823947
34.9801 -0.0128264
35.0211 -0.0140965
35.0621 -0.129749
35.1031 0.00341647
35.1441 0.10415
35.1851 0.0488346
35.2261 0.00413679
35.2672 -0.0924435
35.3082 0.00909384
35.3492 -0.059312
35.3902 -0.120578
35.4312 0.0162743
35.4722 -0.00292277
35.5132 0.0301644
35.5542 0.0842858
35.5953 0.0761081
35.6363 -0.077702
35.6773 0.0707722
35.7183 0.125697
35.7593 0.0245733
35.8003 -0.0138498
35.8413 -0.124989
35.8823 -0.0484264
35.9234 -0.0341634
35.9644 0.178217
36.0054 -0.150868
36.0464 0.279388
36.0874 -0.0297395
36.1284 0.078001
36.1694 0.0192758
36.2104 0.127418
36.2515 -0.139238
36.2925 0.0213891
36.3335 0.0363843
36.3745 -0.120842
36.4155 0.143462
36.4565 0.220466
36.4975 0.0893379
36.5385 0.0209106
36.5796 0.161018
36.6206 0.207576
36.6616 0.0772511
36.7026 0.332544
36.7436 0.0463715
36.7846 0.0728998
36.8256 0.068379
36.8666 0.366142
36.9077 0.101607
36.9487 0.295606
36.9897 0.375222
37.0307 0.392539
37.0717 0.24339
37.1127 0.542359
37.1537 0.362363
37.1947 0.48465
37.2357 0.544639
37.2768 0.521495
37.3178 0.696468
37.3588 0.715393
37.3998 0.724102
37.4408 0.837178
37.4818 1.01296
37.5228 0.928517
37.5638 0.84428
37.6049 0.781076
37.6459 0.707657
37.6869 0.696939
37.7279 0.748922
37.7689 0.832356
37.8099 0.759741
37.8509 0.77066
37.8919 0.708863
37.933 0.7306
37.974 0.398372
38.015 0.483011
38.056 0.192852
38.097 0.454976
38.138 0.488135
38.179 0.229828
38.22 0.377972
38.2611 0.307567
38.3021 0.247779
38.3431 0.271526
38.3841 0.14964
38.4251 0.111289
38.4661 0.291888
38.5071 0.0456055
38.5481 -0.0338098
38.5892 0.0744758
38.6302 0.130879
38.6712 0.0728998
38.7122 0.0151215
38.7532 0.145044
38.7942 -0.0164989
38.8352 -0.0632578
38.8762 0.0881009
38.9173 0.0521606
38.9583 0.0164212
38.9993 0.095466
39.0403 0.0288785
39.0813 0.0249918
39.1223 -0.0428104
39.1633 0.0650552
39.2043 0.0272884
39.2454 0.0834725
39.2864 0.212774
39.3274 -0.0743899
39.3684 0.210349
39.4094 0.0473725
39.4504 -0.104987
39.4914 -0.0175613
39.5324 0.0266463
39.5734 -0.0244469
39.6145 -0.0545059
39.6555 0.103136
39.6965 0.0734789
39.7375 -0.0497273
39.7785 0.0981008
39.8195 -0.0663702
39.8605 0.0610264
39.9015 -0.0092928
39.9426 0.00392229
39.9836 0.00675513
40.0246 -0.000794261
40.0656 -0.0393927
40.1066 0.0367931
40.1476 0.123596
40.1886 -0.0706493
40.2296 -0.0300689
40.2707 0.0211291
40.3117 -0.0108053
40.3527 0.0095446
40.3937 -0.053238
40.4347 0.0508471
40.4757 -0.0219503
40.5167 0.0512866
40.5577 -0.0211089
40.5988 -0.00997022
40.6398 0.0326194
40.6808 -0.0391733
40.7218 -0.00659849
40.7628 -0.00507273
40.8038 0.059154
40.8448 -0.00141844
40.8858 0.146543
40.9269 -0.0698771
40.9679 -0.0262431
41.0089 0.0800919
41.0499 0.0407945
41.0909 -0.0816353
41.1319 0.00446909
41.1729 0.236608
41.2139 -0.083136
41.255 0.0322492
41.296 -0.0500815
41.337 0.0865388
41.378 -0.0683067
41.419 0.0329124
41.46 -0.0323343
41.501 -0.0140467
41.542 0.0461084
41.5831 0.127298
41.6241 0.114938
41.6651 0.0194461
41.7061 0.0387383
41.7471 -0.0563519
41.7881 0.0987588
41.8291 0.108237
41.8701 -0.1425
41.9111 -0.102614
41.9522 -0.0221033
41.9932 0.0794415
42.0342 -0.00631272
42.0752 -0.0918661
42.1162 0.0206982
42.1572 0.0292967
42.1982 0.0797628
42.2392 -0.0362368
42.2803 -0.00620218
42.3213 0.0865334
42.3623 0.0232198
42.4033 0.168441
42.4443 0.0221955
42.4853 0.115735
42.5263 0.0636416
42.5673 0.0325827
42.6084 -0.0329155
42.6494 -0.0807695
42.6904 0.184077
42.7314 0.00120841
42.7724 0.0372904
42.8134 0.20899
42.8544 0.151724
42.8954 -0.0407579
42.9365 0.131544
42.9775 0.116548
43.0185 0.164252
43.0595 0.191324
43.1005 0.166513
43.1415 0.21482
43.1825 0.169578
43.2235 0.36412
43.2646 0.308863
43.3056 0.410058
43.3466 0.417702
43.3876 0.383882
43.4286 0.391929
43.4696 0.587676
43.5106 0.544042
43.5516 0.583941
43.5927 0.592792
43.6337 0.810176
43.6747 0.538179
43.7157 0.672632
43.7567 0.79687
43.7977 0.702558
43.8387 0.691781
43.8797 0.712454
43.9208 0.566662
43.9618 0.368988
44.0028 0.619431
44.0438 0.442991
44.0848 0.537586
44.1258 0.267799
44.1668 0.341962
44.2078 0.291327
44.2488 0.272142
44.2899 0.201075
44.3309 0.0677087
44.3719 0.330377
44.4129 -0.000504268
44.4539 0.0125656
44.4949 0.0154198
44.5359 0.0913916
44.5769 0.0842309
44.618 0.150188
44.659 0.0705124
44.7 0.230621
44.741 0.0263475
44.782 0.166025
44.823 -0.0482636
44.864 0.123065
44.905 0.0341789
44.9461 -0.0545068
44.9871 0.0626028
45.0281 0.166758
45.0691 0.0836132
45.1101 0.0631698
45.1511 0.0220939
45.1921 0.0541357
45.2331 0.0551284
45.2742 -0.00617796
45.3152 -0.0152001
45.3562 -0.0761046
45.3972 0.0611084
45.4382 0.146439
45.4792 0.002804
45.5202 0.119786
45.5612 -0.0442801
45.6023 -0.0935624
45.6433 0.17241
45.6843 0.0323342
45.7253 0.246625
45.7663 0.148618
45.8073 0.0716442
45.8483 0.338622
45.8893 0.07455
45.9304 0.102346
45.9714 0.17201
46.0124 0.325207
46.0534 0.134856
46.0944 0.246789
46.1354 0.36934
46.1764 0.273341
46.2174 0.271293
46.2584 0.394447
46.2995 0.403218
46.3405 0.28719
46.3815 0.473446
46.4225 0.378653
46.4635 0.367394
46.5045 0.429253
46.5455 0.251729
46.5865 0.147323
46.6276 0.376452
46.6686 0.366198
46.7096 0.491561
46.7506 0.242126
46.7916 0.149141
46.8326 0.379274
46.8736 0.213774
46.9146 0.142226
46.9557 -0.0228717
46.9967 0.0518149
47.0377 0.439202
47.0787 0.118458
47.1197 0.037497
47.1607 0.0192374
47.2017 -0.0196547
47.2427 0.0874875
47.2838 -0.148919
47.3248 0.0107079
47.3658 0.0247029
47.4068 0.0909821
47.4478 0.0428789
47.4888 -0.119607
47.5298 0.111536
47.5708 0.124131
47.6119 0.064009
47.6529 0.0561717
47.6939 0.0693686
47.7349 0.0827664
47.7759 -0.0807181
47.8169 -0.0773351
47.8579 -0.0320845
47.8989 0.107117
47.94 0.0694362
47.981 0.11529
48.022 0.161344
48.063 -0.0944843
48.104 -0.0271948
48.145 0.0507123
48.186 -0.0690963
48.227 0.0806171
48.2681 0.209698
48.3091 0.0681467
48.3501 -0.000287162
48.3911 0.0148133
48.4321 0.113448
48.4731 -0.0377164
48.5141 0.00923681
48.5551 0.0251409
48.5961 -0.0420873
48.6372 0.0471353
48.6782 -0.0405244
48.7192 0.132433
48.7602 -0.0381579
48.8012 0.0414518
48.8422 0.204596
48.8832 0.138774
48.9242 0.166903
48.9653 0.0910664
49.0063 0.223764
49.0473 0.137913
49.0883 -0.0623212
49.1293 -0.0436042
49.1703 -0.00385283
49.2113 0.129849
49.2523 0.159586
49.2934 0.07494
49.3344 0.0738284
49.3754 0.093751
49.4164 0.176375
49.4574 -0.136634
49.4984 0.040141
49.5394 0.321284
49.5804 0.0192946
49.6215 -0.0533273
49.6625 0.270085
49.7035 -5.15115e-05
49.7445 0.0737627
49.7855 0.0123613
49.8265 -0.0384226
49.8675 0.0464111
49.9085 0.131446
49.9496 -0.0541521
49.9906 -0.114549
50.0316 0.00233844
50.0726 0.14026
50.1136 0.00754934
50.1546 -0.0207938
50.1956 0.107314
50.2366 -0.0768774
50.2777 0.0203822
50.3187 0.0449261
50.3597 0.0696709
50.4007 0.0216999
50.4417 0.16143
50.4827 0.0721941
50.5237 0.139409
50.5647 0.0505753
50.6058 0.118192
50.6468 0.0714269
50.6878 0.0977791
50.7288 -0.0319178
50.7698 -0.102719
50.8108 0.208293
50.8518 0.165339
50.8928 -0.0753307
50.9338 0.21545
50.9749 0.0689325
51.0159 -0.0253011
51.0569 0.0160829
51.0979 0.0889177
51.1389 0.120287
51.1799 0.120607
51.2209 0.0273779
51.2619 -0.0135669
51.303 -0.00222736
51.344 0.123896
51.385 0.0523044
51.426 0.0954967
51.467 0.13889
51.508 -0.0883494
51.549 0.0458259
51.59 0.0447853
51.6311 0.0543624
51.6721 0.18914
51.7131 0.167869
51.7541 0.0113825
51.7951 0.0634299
51.8361 -0.0822384
51.8771 0.0847942
51.9181 0.220778
51.9592 0.0965456
52.0002 0.160014
52.0412 -0.0888161
52.0822 0.0688045
52.1232 0.0182927
52.1642 -0.0424349
52.2052 0.0514307
52.2462 0.0498895
52.2873 0.0693826
52.3283 0.0890766
52.3693 0.108971
52.4103 0.014484
52.4513 -0.0798026
52.4923 0.0761118
52.5333 -0.0490229
52.5743 0.0239599
52.6154 0.159644
52.6564 0.0246951
52.6974 0.0253641
52.7384 -0.150849
52.7794 0.0770645
52.8204 0.00309598
52.8614 -0.060255
52.9024 0.0432617
52.9435 0.0219792
52.9845 -0.0303523
53.0255 0.0841838
53.0665 -0.103162
53.1075 -0.0507246
53.1485 0.043581
53.1895 -0.051325
53.2305 0.091641
53.2715 -0.140192
53.3126 0.0552591
53.3536 0.0842445
53.3946 0.0196808
53.4356 -0.117599
53.4766 -0.0567604
53.5176 0.0771954
53.5586 -0.0594812
53.5996 0.0644597
53.6407 -0.0301484
53.6817 -0.0515243
53.7227 0.0836655
53.7637 -0.0101105
53.8047 0.146314
53.8457 0.000856874
53.8867 -0.040233
53.9277 0.189711
53.9688 0.107357
54.0098 0.0460361
54.0508 0.19325
54.0918 -0.0655854
54.1328 0.134114
54.1738 0.136097
54.2148 0.0966143
54.2558 0.0260827
54.2969 0.122419
54.3379 0.104372
54.3789 -0.00722317
54.4199 0.131382
54.4609 0.134772
54.5019 0.0550292
54.5429 0.0379875
54.5839 0.146147
54.625 0.11909
54.666 -0.00151571
54.707 0.00307953
54.748 0.0391257
54.789 -0.112127
54.83 0.132654
54.871 0.0338864
54.912 -0.0256081
54.9531 -0.0145792
54.9941 -0.0033494
55.0351 -0.0648354
55.0761 0.0926296
55.1171 0.0836288
55.1581 0.168579
55.1991 0.0245634
55.2401 0.203665
55.2812 0.143385
55.3222 0.0416388
55.3632 0.127594
55.4042 -0.0675007
55.4452 0.0375142
55.4862 0.0177301
55.5272 -0.0331032
55.5682 -0.000402125
55.6092 -0.0195835
55.6503 -0.0906473
55.6913 0.0364065
55.7323 0.153245
55.7733 0.00986693
55.8143 0.0958569
55.8553 0.00496436
55.8963 0.0809395
55.9373 -0.0824679
55.9784 0.0147424
56.0194 0.0913203
56.0604 -0.0402342
56.1014 0.140912
56.1424 -0.000657222
56.1834 0.0454743
56.2244 0.11264
56.2654 0.0758402
56.3065 -0.0690998
56.3475 0.0944867
56.3885 0.0811908
56.4295 0.109762
56.4705 0.0239517
56.5115 0.115425
56.5525 0.123766
56.5935 -0.076025
56.6346 -0.0881154
56.6756 -0.0479215
56.7166 -0.0387767
56.7576 0.178902
56.7986 0.0426157
56.8396 0.0836133
56.8806 0.0623118
56.9216 0.0620445
56.9627 0.114062
57.0037 -0.135804
57.0447 -0.0417183
57.0857 0.156735
57.1267 0.0220555
57.1677 0.0438271
57.2087 -0.038367
57.2497 -0.0161935
57.2908 0.0582642
57.3318 0.132923
57.3728 0.124449
57.4138 0.0536763
57.4548 0.0664377
57.4958 0.131483
57.5368 0.0821467
57.5778 -0.0607391
57.6189 0.053141
57.6599 0.0838887
57.7009 0.0731707
57.7419 0.13557
57.7829 0.0210873
57.8239 0.0943054
57.8649 -0.00935898
57.9059 -0.0607391
57.9469 0.120473
57.988 0.16647
58.029 -0.00608283
58.07 0.154899
58.111 0.0973315
58.152 0.154548
58.193 -0.0901171
58.234 0.0300016
58.275 -0.00592872
58.3161 8.5369e-06
58.3571 0.0478134
58.3981 -0.00834752
58.4391 0.133609
58.4801 0.1091
58.5211 0.0639587
58.5621 0.0502681
58.6031 -0.0153048
58.6442 0.0339065
58.6852 0.229152
58.7262 0.0287652
58.7672 0.151496
58.8082 0.128594
58.8492 0.0954769
58.8902 0.0417271
58.9312 0.196512
58.9723 0.132747
59.0133 0.194183
59.0543 0.0579037
59.0953 -0.00525813
59.1363 0.0151143
59.1773 0.129438
59.2183 0.0668785
59.2593 -0.0267297
59.3004 -0.0263869
59.3414 -0.0779266
59.3824 0.0271257
59.4234 0.038629
59.4644 0.0294998
59.5054 0.0205715
59.5464 0.0847609
59.5874 -0.0383489
59.6285 -0.0675077
59.6695 0.0122972
59.7105 -0.0118636
59.7515 -0.0254068
59.7925 0.0133343
59.8335 0.0626929
59.8745 0.0601692
59.9155 -0.056737
59.9565 0.0661411
59.9976 0.137137
60.0386 0